Folder: PHYS_3501/XRD

Note: README.md
# Modern Experimental Methods

## Data & Analysis for UConn's Phys 3501 Modern Experimental Lab Course

Packages needed:

* Python3
* SciPy
* NumPy
* MatPlotLib

File: run1_lif_side.txt
angle [deg]	counting rate [cps]
38.00	0.99
38.20	1.50
38.30	2.51
38.40	3.01
38.50	3.01
38.60	3.99
38.70	3.49
38.80	3.47
38.90	3.97
39.00	3.99
39.10	5.03
39.20	3.03
39.30	3.00
39.40	7.01
39.50	6.03
39.60	4.52
39.70	5.02
39.80	4.01
39.90	2.00
40.00	0.49
40.10	0.99
40.20	2.51
40.30	3.50
40.40	2.98
40.50	1.99
40.60	0.50
40.70	0.00
40.80	1.49
40.90	1.99
41.00	0.99
41.10	3.01
41.20	4.53
41.30	3.52
41.40	2.51
41.50	1.50
41.60	1.00
41.70	0.99
41.80	1.49
41.90	2.49
42.00	2.00
42.10	2.00
42.20	2.00
42.30	0.99
42.40	0.49
42.50	0.49
42.60	2.49
42.70	2.00
42.80	0.99
42.90	1.49
43.00	1.99
43.10	1.99
43.20	1.99
43.30	4.49
43.40	6.96
43.50	9.93
43.60	13.43
43.70	15.39
43.80	13.02
43.90	14.61
44.00	16.52
44.10	12.54
44.20	11.52
44.30	8.98
44.40	4.51
44.50	6.54
44.60	7.56
44.70	3.00
44.80	3.01
44.90	5.03
45.00	3.50
45.10	2.00
45.20	2.00
45.30	2.47
45.40	2.47
45.50	2.49
45.60	2.47
45.70	2.47
45.80	1.49
45.90	0.00
46.00	2.01
46.10	2.01
46.20	1.00
46.30	2.51
46.40	2.01
46.50	1.00
46.60	1.50
46.70	0.99
46.80	0.99
46.90	1.49
47.00	0.99
47.10	1.50
47.20	2.51
47.30	2.00
47.40	1.49
47.50	1.49
47.60	0.99
47.70	0.99
47.80	1.00
47.90	0.99
48.00	0.99

File: run1_nacl_vert.txt
angle [deg]	counting rate [cps]
20.00	19.99
20.40	14.72
20.80	15.21
21.20	13.97
21.60	10.92
22.00	12.20
22.40	13.15
22.80	15.40
23.20	11.26
23.60	10.19
24.00	12.49
24.40	15.16
24.80	10.24
25.20	11.87
25.60	17.65
26.00	11.73
26.40	14.36
26.80	13.99
27.20	15.24
27.60	47.95
28.00	68.82
28.40	56.97
28.80	28.69
29.20	21.89
29.60	19.04
30.00	15.61
30.40	56.24
30.80	255.62
31.20	368.60
31.60	212.69
32.00	70.58
32.40	9.45
32.80	12.08
33.20	14.46
33.60	8.51
34.00	12.17
34.40	11.68
34.80	15.96
35.20	12.19
35.60	10.72
36.00	8.25
36.40	9.51
36.80	13.44
37.20	9.54
37.60	8.99
38.00	7.72
38.40	3.98
38.80	8.21
39.20	8.91
39.60	5.96
40.00	6.01
40.40	8.47
40.80	8.53
41.20	9.05
41.60	8.01
42.00	5.23
42.40	9.49
42.80	6.73
43.20	7.02
43.60	4.72
44.00	9.23
44.40	8.46
44.80	9.17
45.20	5.03
45.60	7.01
46.00	6.71
46.40	6.02
46.80	5.26
47.20	8.96
47.60	5.49
48.00	3.98
48.40	4.49
48.80	6.51
49.20	5.25
49.60	5.28
50.00	7.72
50.40	6.26
50.80	5.99
51.20	5.49
51.60	8.49
52.00	2.24
52.40	2.74
52.80	3.98
53.20	5.01
53.60	5.00
54.00	4.71
54.40	8.34
54.80	5.29
55.20	5.97
55.60	6.96
56.00	4.97
56.40	8.76
56.80	8.49
57.20	6.28
57.60	2.75
58.00	13.55
58.40	42.49
58.80	39.91
59.20	20.44
59.60	9.95
60.00	5.99
60.40	7.99
60.80	7.24
61.20	5.71
61.60	6.29
62.00	7.22
62.40	5.23
62.80	7.95
63.20	6.48
63.60	5.49
64.00	7.02
64.40	6.24
64.80	8.43
65.20	52.83
65.60	183.91
66.00	215.75
66.40	91.33
66.80	20.24
67.20	9.46
67.60	6.45
68.00	7.25
68.40	5.95
68.80	10.99
69.20	4.73
69.60	11.50
70.00	3.24
70.40	4.01
70.80	9.79
71.20	6.00
71.60	6.70
72.00	5.31
72.40	4.26
72.80	4.24
73.20	3.27
73.60	9.63
74.00	7.20
74.40	5.96
74.80	5.73
75.20	4.49
75.60	4.24
76.00	6.47
76.40	7.07
76.80	7.54
77.20	5.52
77.60	4.52
78.00	5.76
78.40	4.97
78.80	6.73
79.20	3.48
79.60	3.98
80.00	4.28
80.40	4.98
80.80	4.74
81.20	6.99
81.60	6.27
82.00	6.03
82.40	4.50
82.80	4.24
83.20	6.03
83.60	2.01
84.00	0.00
84.40	0.00
84.80	0.00
85.00	0.74

File: run2_lif_vert.txt
angle [deg]	counting rate [cps]
38.00	8.97
38.20	12.47
38.30	14.21
38.40	16.79
38.50	21.55
38.60	31.56
38.70	28.51
38.80	33.60
38.90	47.01
39.00	43.32
39.10	36.19
39.20	39.08
39.30	36.35
39.40	31.31
39.50	30.34
39.60	21.04
39.70	16.70
39.80	14.15
39.90	11.45
40.00	11.49
40.10	9.54
40.20	10.10
40.30	8.56
40.40	7.50
40.50	8.09
40.60	9.54
40.70	9.46
40.80	8.03
40.90	9.52
41.00	12.43
41.10	10.98
41.20	9.03
41.30	11.97
41.40	12.41
41.50	8.44
41.60	8.43
41.70	9.41
41.80	5.46
41.90	5.96
42.00	9.44
42.10	12.97
42.20	15.92
42.30	13.88
42.40	14.44
42.50	17.38
42.60	14.89
42.70	17.38
42.80	26.33
42.90	26.41
43.00	37.63
43.10	61.03
43.20	88.18
43.30	139.43
43.40	177.14
43.50	196.31
43.60	220.35
43.70	234.32
43.80	238.97
43.90	210.90
44.00	160.40
44.10	122.13
44.20	86.04
44.30	55.73
44.40	44.17
44.50	36.09
44.60	26.48
44.70	23.30
44.80	22.87
44.90	20.52
45.00	15.93
45.10	13.43
45.20	10.01
45.30	8.95
45.40	8.43
45.50	8.96
45.60	9.94
45.70	9.48
45.80	12.99
45.90	15.45
46.00	10.94
46.10	4.97
46.20	7.04
46.30	7.60
46.40	7.54
46.50	9.00
46.60	9.43
46.70	9.94
46.80	6.50
46.90	6.93
47.00	8.92
47.10	8.96
47.20	9.50
47.30	9.01
47.40	7.50
47.50	8.55
47.60	13.60
47.70	11.54
47.80	7.47
47.90	6.96
48.00	5.96

File: run2_nacl_vert.txt
angle [deg]	counting rate [cps]
25.00	18.03
25.20	16.05
25.30	14.04
25.40	12.00
25.50	12.00
25.60	12.50
25.70	11.57
25.80	9.13
25.90	11.10
26.00	12.04
26.10	10.98
26.20	8.48
26.30	8.00
26.40	13.50
26.50	16.90
26.60	11.90
26.70	11.01
26.80	12.52
26.90	11.47
27.00	10.01
27.10	9.06
27.20	10.01
27.30	10.90
27.40	18.45
27.50	27.11
27.60	37.63
27.70	49.80
27.80	69.10
27.90	80.69
28.00	77.04
28.10	75.77
28.20	79.60
28.30	76.79
28.40	71.66
28.50	70.02
28.60	53.95
28.70	44.32
28.80	44.71
28.90	42.35
29.00	35.04
29.10	23.46
29.20	18.01
29.30	18.89
29.40	17.88
29.50	13.47
29.60	13.59
29.70	14.06
29.80	13.03
29.90	15.57
30.00	15.54
30.10	15.51
30.20	17.56
30.30	16.55
30.40	17.45
30.50	20.36
30.60	33.71
30.70	71.79
30.80	121.84
30.90	179.19
31.00	267.52
31.10	333.65
31.20	355.97
31.30	367.75
31.40	372.04
31.50	371.07
31.60	363.81
31.70	323.96
31.80	248.46
31.90	194.84
32.00	169.12
32.10	135.88
32.20	91.55
32.30	59.51
32.40	31.55
32.50	15.97
32.60	15.45
32.70	15.94
32.80	16.49
32.90	11.96
33.00	12.47
33.10	14.01
33.20	12.50
33.30	12.95
33.40	11.38
33.50	10.43
33.60	11.99
33.70	10.03
33.80	8.03
33.90	8.98
34.00	14.65
34.10	17.28
34.20	13.09
34.30	13.97
34.40	12.96
34.50	14.93
34.60	15.39
34.70	12.48
34.80	14.00
34.90	13.93
40.60	0.00

File: run3_lif_vert.txt
angle [deg]	counting rate [cps]
20.00	5.94
20.30	10.95
20.50	9.99
20.70	7.48
20.90	14.96
21.10	6.96
21.30	11.99
21.50	5.98
21.70	6.99
21.90	9.57
22.10	9.46
22.30	10.57
22.50	7.94
22.70	12.54
22.90	8.51
23.10	6.94
23.30	7.53
23.50	8.44
23.70	10.48
23.90	8.99
24.10	10.49
24.30	11.62
24.50	12.11
24.70	6.56
24.90	6.03
25.10	9.48
25.30	10.04
25.50	7.52
25.70	4.47
25.90	8.44
26.10	10.43
26.30	6.02
26.50	6.94
26.70	5.01
26.90	4.51
27.10	5.96
27.30	8.46
27.50	4.00
27.70	11.05
27.90	8.95
28.10	10.94
28.30	8.99
28.50	9.57
28.70	9.01
28.90	9.47
29.10	6.99
29.30	5.99
29.50	5.97
29.70	4.96
29.90	6.44
30.10	5.51
30.30	7.02
30.50	9.48
30.70	7.50
30.90	9.49
31.10	7.92
31.30	7.00
31.50	8.09
31.70	5.98
31.90	7.47
32.10	9.55
32.30	8.95
32.50	9.50
32.70	8.49
32.90	8.51
33.10	6.00
33.30	8.52
33.50	5.00
33.70	5.00
33.90	3.01
34.10	4.50
34.30	11.06
34.50	5.47
34.70	10.02
34.90	7.99
35.10	7.99
35.30	6.95
35.50	7.47
35.70	4.50
35.90	6.60
36.10	8.97
36.30	3.47
36.50	9.48
36.70	6.03
36.90	10.47
37.10	11.50
37.30	6.57
37.50	5.00
37.70	6.51
37.90	7.54
38.10	7.00
38.30	8.99
38.50	6.53
38.70	10.96
38.90	20.04
39.10	19.76
39.30	32.74
39.50	43.42
39.70	37.86
39.90	30.36
40.10	23.82
40.30	19.40
40.50	7.50
40.70	12.55
40.90	9.99
41.10	8.58
41.30	9.54
41.50	8.03
41.70	13.03
41.90	10.51
42.10	10.04
42.30	8.98
42.50	10.04
42.70	10.49
42.90	9.57
43.10	9.05
43.30	18.52
43.50	28.23
43.70	57.95
43.90	117.57
44.10	218.57
44.30	241.03
44.50	192.29
44.70	131.20
44.90	73.15
45.10	47.78
45.30	17.88
45.50	15.56
45.70	11.98
45.90	7.01
46.10	8.96
46.30	10.01
46.50	7.98
46.70	8.49
46.90	8.55
47.10	7.54
47.30	8.57
47.50	8.97
47.70	9.42
47.90	10.45
48.10	10.41
48.30	10.06
48.50	6.94
48.70	8.51
48.90	10.48
49.10	8.49
49.30	8.98
49.50	8.46
49.70	8.98
49.90	11.50
50.10	6.48
50.30	8.94
50.50	5.50
50.70	9.53
50.90	7.97
51.10	7.07
51.30	12.54
51.50	9.49
51.70	6.99
51.90	7.00
52.10	9.52
52.30	9.48
52.50	7.47
52.70	10.54
52.90	5.97
53.10	7.48
53.30	6.99
53.50	7.49
53.70	7.05
53.90	6.01
54.10	4.98
54.30	10.96
54.50	6.00

File: run4_lif_vert.txt
angle [deg]	counting rate [cps]
38.00	7.98
38.20	8.07
38.30	8.59
38.40	6.00
38.50	6.44
38.60	7.94
38.70	7.46
38.80	8.96
38.90	9.49
39.00	6.51
39.10	5.98
39.20	5.49
39.30	4.51
39.40	4.01
39.50	4.00
39.60	5.02
39.70	5.50
39.80	7.47
39.90	7.50
40.00	6.99
40.10	12.42
40.20	15.88
40.30	13.40
40.40	17.63
40.50	23.15
40.60	28.53
40.70	29.51
40.80	26.23
40.90	34.64
41.00	40.58
41.10	43.75
41.20	34.60
41.30	23.52
41.40	29.42
41.50	25.46
41.60	21.61
41.70	19.08
41.80	13.98
41.90	12.46
42.00	7.47
42.10	5.51
42.20	6.01
42.30	4.49
42.40	7.97
42.50	9.96
42.60	5.97
42.70	5.47
42.80	6.97
42.90	11.06
43.00	13.62
43.10	10.56
43.20	8.54
43.30	9.54
43.40	8.52
43.50	8.01
43.60	9.93
43.70	11.52
43.80	10.09
43.90	8.55
44.00	10.54
44.10	7.99
44.20	7.46
44.30	10.97
44.40	11.00
44.50	10.46
44.60	14.59
44.70	17.73
44.80	25.54
44.90	41.37
45.00	59.30
45.10	75.45
45.20	101.56
45.30	142.41
45.40	177.78
45.50	213.13
45.60	233.35
45.70	228.11
45.80	222.15
45.90	203.26
46.00	165.61
46.10	127.30
46.20	88.60
46.30	53.28
46.40	42.67
46.50	36.68
46.60	31.07
46.70	27.03
46.80	18.50
46.90	19.49
47.00	14.98
47.10	14.48
47.20	13.97
47.30	10.49
47.40	10.99
47.50	10.49
47.60	9.95
47.70	7.46
47.80	5.53
47.90	8.01
48.00	9.96

File: run5_lif_vert.txt
angle [deg]	counting rate [cps]
38.00	8.08
38.20	7.01
38.40	9.21
38.60	6.96
38.80	12.80
39.00	18.13
39.20	25.14
39.40	33.22
39.60	33.52
39.80	31.68
40.00	25.75
40.20	17.25
40.40	15.89
40.60	13.09
40.80	7.51
41.00	8.26
41.20	11.27
41.40	9.00
41.60	5.75
41.80	8.74
42.00	11.52
42.20	8.95
42.40	9.51
42.60	11.47
42.80	13.45
43.00	14.09
43.20	20.96
43.40	26.55
43.60	40.59
43.80	95.75
44.00	152.65
44.20	224.24
44.40	211.75
44.60	149.52
44.80	86.23
45.00	49.14
45.20	35.38
45.40	15.79
45.60	17.48
45.80	15.61
46.00	14.05
46.20	13.99
46.40	10.22
46.60	6.73
46.80	10.56
47.00	11.19
47.20	5.71
47.40	7.07
47.60	9.47
47.80	13.62
48.00	14.85

File: run6_lif_vert.txt
angle [deg]	counting rate [cps]
20.00	12.00
20.40	8.49
20.80	8.19
21.20	7.23
21.60	10.43
22.00	10.33
22.40	13.69
22.80	8.75
23.20	8.44
23.60	9.51
24.00	8.27
24.40	8.23
24.80	12.22
25.20	7.97
25.60	4.51
26.00	6.52
26.40	6.47
26.80	13.07
27.20	5.01
27.60	6.27
28.00	5.82
28.40	3.28
28.80	10.83
29.20	6.00
29.60	4.50
30.00	8.48
30.40	8.47
30.80	5.81
31.20	9.74
31.60	10.72
32.00	5.74
32.40	7.23
32.80	5.72
33.20	7.31
33.60	11.39
34.00	7.99
34.40	2.97
34.80	5.80
35.20	6.01
35.60	7.93
36.00	5.23
36.40	10.76
36.80	8.46
37.20	9.27
37.60	8.50
38.00	8.04
38.40	9.00
38.80	9.52
39.20	25.38
39.60	32.18
40.00	27.31
40.40	12.43
40.80	11.05
41.20	10.00
41.60	3.26
42.00	11.54
42.40	6.98
42.80	11.19
43.20	17.24
43.60	32.05
44.00	138.42
44.40	209.06
44.80	123.28
45.20	34.62
45.60	11.16
46.00	11.56
46.40	11.48
46.80	6.05
47.20	8.57
47.60	11.74
48.00	0.00
48.40	6.27
48.80	8.25
49.20	8.26
49.60	6.23
50.00	10.48
50.40	5.20
50.80	5.73
51.20	5.46
51.60	7.49
52.00	5.73
52.40	9.71
52.80	10.02
53.20	6.75
53.60	8.24
54.00	6.78
54.40	11.10
54.80	6.72
55.20	6.00
55.60	5.57
56.00	6.71
56.40	8.04
56.80	6.73
57.20	4.27
57.60	10.21
58.00	2.47
58.40	7.06
58.80	6.49
59.20	8.71
59.60	6.24
60.00	3.48
60.40	7.74
60.80	5.29
61.20	6.76
61.60	5.50
62.00	8.79
62.40	7.04
62.80	10.73
63.20	7.08
63.60	7.26
64.00	5.49
64.40	10.16
64.80	7.45
65.20	9.53
65.60	9.78
66.00	9.71
66.40	9.46
66.80	5.23
67.20	5.51
67.60	3.25
68.00	9.99
68.40	13.54
68.80	9.03
69.20	5.52
69.60	5.71
70.00	11.60
70.40	5.72
70.80	7.47
71.20	11.77
71.60	11.96
72.00	7.52
72.40	9.24
72.80	5.94
73.20	10.45
73.60	10.67
74.00	3.49
74.40	6.96
74.80	9.61
75.20	8.83
75.60	6.05
76.00	6.32
76.40	5.77
76.80	6.77
77.20	7.48
77.60	7.92
78.00	8.24
78.40	6.96
78.80	8.03
79.20	5.75
79.60	7.99
80.00	12.34
80.40	7.00
80.80	13.79
81.20	9.76
81.60	8.48
82.00	11.82
82.40	11.15
82.80	9.01
83.20	3.50
83.60	6.49
84.00	10.54
84.40	7.91
84.80	14.25
85.20	15.72
85.60	18.68
86.00	39.03
86.40	61.05
86.80	82.49
87.20	60.85
87.60	16.36
88.00	13.65
88.40	15.88
88.80	16.57
89.20	12.74
89.60	7.49
90.00	8.54
90.40	5.72
90.80	5.98
91.20	14.39
91.60	10.42
92.00	13.28
92.40	12.71
92.80	11.46
93.20	10.50
93.60	9.71
94.00	8.54
94.40	8.26
94.80	14.65
95.20	8.24
95.60	12.03
96.00	15.04
96.40	16.96
96.80	8.27
97.20	14.63
97.60	21.45
98.00	65.36
98.40	236.81
98.80	528.72
99.20	538.28
99.40	341.09